Folder: sensor_arrays/data/expt_data/H2O_CO2

Note: data/expt_data/H2O_CO2/list_of_isotherms.txt
Al-MIL-53_304K.csv
MIL-101_303K.csv
MIL-101-NH2_293K.csv
MIL-101-NO2_293K.csv
MIL-125_298K.csv
MIL-125-NH2_298K.csv
MIL-68_298K.csv
MIL-68-NH2_298K.csv
SIM-1_303K.csv
ZIF-8_298K.csv
MCM-41_298K.csv

Note: README.md
# sensor_arrays
MOF sensor arrays

File: MCM-41-water_298K.csv
Pressure(P/P0),Adsorption(cm3(STP)/g)
0.0,0.0
0.0125984,21.4227
0.0251969,26.824
0.0440945,35.7855
0.0529134,37.6752
0.0768504,45.015
0.103307,50.6843
0.131024,56.378
0.15748,63.7664
0.188976,71.2524
0.201575,74.9345
0.233071,82.4204
0.248189,84.432
0.278425,93.6128
0.304882,97.5629
0.332598,106.695
0.356535,114.035
0.379213,121.35
0.39811,125.154
0.419528,134.164
0.452283,146.832
0.463622,150.49
0.474961,159.305
0.485039,166.377
0.495118,175.168
0.510236,187.495
0.519055,203.138
0.525354,215.294
0.534173,232.657
0.539213,248.227
0.544252,267.236
0.548031,289.658
0.553071,313.824
0.554331,331.041
0.55937,353.488
0.56063,367.266
0.565669,386.274
0.565669,410.343
0.568189,432.741
0.574488,451.774
0.577008,474.173
0.578268,491.389
0.580787,513.787
0.583307,536.186
0.587087,555.17
0.588346,575.825
0.590866,598.223
0.593386,625.779
0.600945,648.275
0.605984,675.879
0.608504,703.435
0.612283,729.296
0.619843,753.511
0.631181,776.08
0.661417,793.857
0.915906,858.951