Folder: sensor_arrays/data/expt_data/SO2_CO2

Note: README.md
# sensor_arrays
MOF sensor arrays

File: Mg-MOF-74-CO2_298.csv
Pressure(P/P0),Adsorption(mg/g)
0.0,0.0
0.00400305,11.4094
0.00804809,21.4765
0.0100244,30.2013
0.0130603,37.5839
0.0140023,45.6376
0.0175854,92.6174
0.0177366,80.5369
0.0180305,57.047
0.0199817,67.7852
0.0226564,104.027
0.0256335,116.107
0.0286358,126.174
0.0295274,138.255
0.0314869,148.322
0.0344892,158.389
0.0416541,169.128
0.0477343,183.221
0.0559503,193.289
0.0599954,203.356
0.068245,210.738
0.0806321,220.805
0.0899329,227.517
0.100268,234.899
0.113757,240.268
0.137639,248.322
0.15841,255.034
0.18231,261.745
0.201029,265.772
0.216628,269.128
0.235364,271.812
0.255134,275.168
0.273853,279.195
0.29676,281.879
0.322779,285.906
0.360242,291.946
0.385243,293.96
0.413356,297.315
0.442494,302.013
0.4727,304.698
0.502906,307.383
0.533104,310.738
0.561217,314.094
0.593517,316.107
0.621646,318.121
0.653929,321.477
0.682042,324.832
0.712265,326.174
0.741428,328.859
0.787259,332.886
0.835175,336.913
0.88622,340.94
0.934136,344.966
0.984138,348.993